Folder: XAS_AI_Agent

File: XAS_database.txt
# XDI/1.0 Demeter/0.9.26
# Demeter.output_filetype: multicolumn magnitude of chi(R)
# Element.symbol: Co
# Element.edge: K
# Column.1: R Angstrom
# Column.2: Co-K_Co-foil_Si111_50ms_121117.txt
# Column.3: Cr-K_Cr-foil_Si111_50ms_120613.txt
# Column.4: Cu-K_Cu-foil_Si111_50ms_120613.txt
# Column.5: Fe-K_Fe-foil_Si111_50ms_120621.txt
# Column.6: Mo-K_Mo-foil_Si111_50ms_160716.txt
# Column.7: Nb-K_Nb-foil_Si111_50ms_161006.txt
# Column.8: Ni-K_Ni-foil_Si111_50ms_121117.txt
# Column.9: Rh-K_Rh-foil_Si111_50ms_150918.txt
# Column.10: Ti-K_Ti-foil_Si111_100ms_140616.txt
# Column.11: V-K_V-foil_Si111_100ms_180211.txt
# Column.12: Zn-K_Zn-foil_Si111_50ms_141117.txt
# Column.13: Zr-K_Zr-foil_Si111_50ms_170419.txt
#------------------------
#  "r  Co-K_Co-foil_Si111_50ms_121117.txt  Cr-K_Cr-foil_Si111_50ms_120613.txt  Cu-K_Cu-foil_Si111_50ms_120613.txt  Fe-K_Fe-foil_Si111_50ms_120621.txt  Mo-K_Mo-foil_Si111_50ms_160716.txt  Nb-K_Nb-foil_Si111_50ms_161006.txt  Ni-K_Ni-foil_Si111_50ms_121117.txt
  0.0000000       0.00172724   0.0171397   0.00216579   0.14878       0.0250381   0.0324926   0.0124141   0.0846245   0.00378754   0.0259884   0.0320393   0.0178875
  0.184078       0.000163372   0.0224341   0.000842296   0.108902       0.0218884   0.0298648   0.0137479   0.0897708   0.0154314   0.0307449   0.0334654   0.0163624
  0.368155       0.00021706   0.0246505   0.00727714   0.13888       0.0232624   0.0266108   0.0200354   0.101019       0.0318083   0.0342559   0.0416126   0.0139936
  0.552233       0.00366847   0.0287251   0.0198177   0.153495       0.0325614   0.0269686   0.0258721   0.108622       0.0432224   0.0429302   0.0480072   0.0140938
  0.736311       0.0407706   0.0400339   0.033237   0.1495       0.0916827   0.0469261   0.0620759   0.132417       0.192967       0.0467767   0.0896601   0.0205608
  0.920388       0.137411       0.108971       0.0814586   0.257574       0.166098       0.10352       0.0346111   0.0605025   0.173948       0.198968       0.0597093   0.040493
  1.10447       0.174571       0.26923       0.0699379   0.135961       0.0364275   0.0372607   0.162903       0.325129       0.10675       0.211476       0.0713148   0.0460081
  1.28854       0.0933685   0.205189       0.100482       0.288319       0.187363       0.103575       0.131608       0.291134       0.124064       0.222468       0.0566737   0.0789878
  1.47262       0.381733       0.390695       0.21818       0.379772       0.273994       0.137302       0.310489       0.343209       0.120261       0.316044       0.0605683   0.116456
  1.6567       0.796434       0.748102       0.42938       0.407381       0.306029       0.183845       0.712587       0.564172       0.194491       0.456737       0.123979       0.073471
  1.84078        1.84477        1.48435       0.997643        1.82893       0.477032       0.223384        1.76989       0.732462       0.404485       0.87832       0.285255       0.10075
  2.02485        3.75652        2.69647        2.28231        3.15478       0.991432       0.36474        3.75348       0.966906       0.769631        1.58874       0.709771       0.178453
  2.20893        4.98686        3.74884        3.64424        3.57036        2.38866       0.803581        5.30923        3.29584        1.38245        2.46863        1.29184       0.204466
  2.39301        2.65085        2.80415        2.76232        3.07743        4.42596        1.81283        2.81597        5.77517        2.24579        2.46029        1.33398       0.355281
  2.57709       0.666985        2.0556        1.02976        2.23021        1.92756        2.08323       0.751761        2.09686        2.57505        1.62405       0.687103       0.720724
  2.76117       0.179217       0.920226       0.371947        1.24135        2.34986        1.09757       0.228825       0.483116        1.51107        1.05173       0.221496        1.44634
  2.94524       0.175446       0.394035       0.21826       0.205642        1.52509        1.04218       0.203827       0.212131       0.515063       0.506963       0.130053        1.52815
  3.12932       0.488879       0.517236       0.397215       0.565337       0.244784       0.509783       0.575012       0.163496       0.156369       0.303547       0.0777527   0.667986
  3.3134       0.764898       0.606255       0.637499       0.72323       0.191283       0.167023       0.873067       0.300713       0.0778972   0.405872       0.0908915   0.200636
  3.49748       0.52829       0.915737       0.585627       0.843494       0.31393       0.17479       0.653257       0.774223       0.0527296   0.492746       0.138049       0.144879
  3.68155       0.433581        1.14596       0.442131        1.04777       0.265375       0.20676       0.744383       0.253051       0.183867       0.696243       0.120659       0.0836158
  3.86563       0.864601       0.53161       0.636583       0.785116       0.308557       0.133885        1.41079       0.227084       0.260826       0.772243       0.115503       0.0728132
  4.04971        1.27327       0.525991        1.11019       0.123874        1.09016       0.170427        1.9057       0.474828       0.231985       0.455874       0.0838871   0.114685
  4.23379       0.973996        1.23201        1.17896        1.31876       0.676554       0.395044        1.40607        1.32281       0.237869       0.374579       0.178675       0.120034
  4.41786       0.885557        2.15397       0.87089        2.23325       0.147694       0.26279        1.21975        1.24379       0.376903       0.772808       0.236465       0.116342
  4.60194       0.828394        2.07936       0.805954        2.33598       0.520069       0.113024        1.54544       0.237704       0.573696        1.27045       0.193376       0.0834428
  4.78602       0.600416       0.933594       0.870273        1.61339        1.11104       0.229618        1.43746       0.70332       0.595605        1.33528       0.128817       0.0577301
  4.9701       0.320375       0.344092       0.72882       0.553576       0.147243       0.425731       0.835436        1.15419       0.478377       0.845117       0.203053       0.162624
  5.15418       0.203955       0.151852       0.497293       0.273689       0.52472       0.275025       0.559685       0.529268       0.363681       0.371824       0.256224       0.283213
  5.33825       0.144148       0.491266       0.3295       0.614989       0.285038       0.159324       0.320231       0.063714   0.347699       0.182595       0.192232       0.195676
  5.52233       0.0781049   0.64525       0.139658       0.581328       0.29997       0.10302       0.133608       0.339668       0.289005       0.221706       0.123136       0.0215789
  5.70641       0.0453031   0.43873       0.0744496   0.422059       0.320669       0.0987264   0.116276       0.373552       0.187894       0.375257       0.0665829   0.0607447
  5.89049       0.0619834   0.30915       0.0349445   0.327937       0.517275       0.0973939   0.156312       0.0551652   0.136729       0.356756       0.0781102   0.134641
  6.07456       0.00315573   0.283477       0.090148   0.312319       0.252935       0.148274       0.161055       0.0699389   0.135899       0.263554       0.0469301   0.19874
  6.25864       0.116011       0.325005       0.11994       0.307197       0.378903       0.127102       0.159545       0.107956       0.0913067   0.195332       0.0372084   0.0384977
  6.44272       0.139277       0.283506       0.102854       0.308959       0.425379       0.0467913   0.293351       0.267716       0.0488215   0.194229       0.0524638   0.0168495
  6.6268       0.121008       0.23742       0.229894       0.299198       0.35608       0.142207       0.335296       0.614736       0.0260096   0.185347       0.0371287   0.0219787
  6.81087       0.203936       0.304652       0.21327       0.268098       0.12045       0.121153       0.0988462   0.671231       0.0203352   0.152772       0.0182749   0.0468293
  6.99495       0.321131       0.366748       0.0615831   0.237729       0.277032       0.0848262   0.372342       0.420347       0.0581278   0.141328       0.0294189   0.0352286
  7.17903       0.310995       0.296843       0.231086       0.204049       0.373205       0.0464285   0.497028       0.27961       0.0168727   0.181235       0.0373437   0.0290439
  7.36311       0.15275       0.112581       0.321863       0.182642       0.196602       0.0369885   0.351517       0.114316       0.0216407   0.211805       0.0431623   0.028357
  7.54719       0.0632108   0.117599       0.260509       0.188318       0.176386       0.0731706   0.214132       0.114146       0.0777779   0.184903       0.0726843   0.041597
  7.73126       0.0494674   0.122432       0.200851       0.130717       0.409261       0.0380632   0.112185       0.217449       0.0491615   0.104394       0.0243041   0.0674922
  7.91534       0.0838033   0.108221       0.155244       0.0276973   0.289431       0.0239475   0.0521783   0.235022       0.0636668   0.0996574   0.012909   0.0308113
  8.09942       0.0639751   0.174106       0.104236       0.187377       0.0833693   0.0676174   0.113794       0.130037       0.0952323   0.0731941   0.0168777   0.0384081
  8.2835       0.0153066   0.21722       0.0995452   0.266231       0.0681762   0.0760596   0.220116       0.0966232   0.133024       0.036558   0.0146421   0.0646097
  8.46757       0.0645106   0.26802       0.12123       0.264685       0.190108       0.0344122   0.234136       0.0753818   0.130801       0.0883363   0.0172819   0.0477106
  8.65165       0.0397374   0.23151       0.118201       0.246376       0.20356       0.0267984   0.157668       0.0805017   0.0996795   0.126393       0.0335648   0.0257154
  8.83573       0.00460922   0.128692       0.127222       0.206894       0.103265       0.0336724   0.112169       0.137107       0.0460156   0.130716       0.0564509   0.0322568
  9.01981       0.0514149   0.111431       0.111887       0.140853       0.15998       0.0345218   0.0363995   0.0760548   0.0235093   0.139139       0.0264374   0.027869
  9.20388       0.0667004   0.151307       0.0706451   0.132619       0.203154       0.0414884   0.0862385   0.0390189   0.0477749   0.107962       0.0514368   0.0456216
  9.38796       0.0612039   0.186673       0.0571968   0.172489       0.137638       0.0532685   0.116853       0.0442595   0.0539538   0.0751535   0.0186387   0.030417
  9.57204       0.064453   0.174081       0.0717879   0.171842       0.115797       0.00722785   0.0681147   0.0357746   0.0228552   0.0749553   0.0369779   0.00353144
  9.75612       0.0658768   0.0652016   0.0509923   0.122029       0.0574178   0.0155113   0.0933386   0.0411633   0.0133568   0.100743       0.0207057   0.0148917
  9.9402       0.0453404   0.0145555   0.0772696   0.0482228   0.117215       0.018972   0.0919001   0.0656032   0.0231445   0.131267       0.0155965   0.0216764
  9.97088       0.0397175   0.0205106   0.0855369   0.0353829   0.13209       0.0254345   0.0868179   0.0708846   0.0317454   0.130099       0.0190357   0.0226725